File: data/battery_data.csv
cycle_number,c_rate,voltage_mean,voltage_std,current_mean,temperature_mean,discharge_capacity,soh
1,0.5,3.8795,0.1683,2.4705,25.94,4.9856,0.997582
4,0.5,3.8843,0.1609,2.4899,25.3,4.9521,0.993262
7,0.5,3.8557,0.1632,2.5551,25.03,4.9642,0.992496
10,0.5,3.8601,0.1609,2.5127,26.48,4.9688,0.991813
13,0.5,3.8404,0.1673,2.4823,26.8,4.9443,0.989454
16,0.5,3.8587,0.1618,2.4319,26.51,4.9275,0.988437
19,0.5,3.8459,0.1636,2.4749,25.99,4.9624,0.987551
22,0.5,3.8643,0.1619,2.3083,25.74,4.9274,0.985337
25,0.5,3.8512,0.1577,2.5164,26.42,4.9314,0.985685
28,0.5,3.8732,0.1663,2.5465,25.62,4.9476,0.985734
31,0.5,3.8518,0.1671,2.4386,25.61,4.9291,0.984396
34,0.5,3.865,0.1679,2.566,25.47,4.9258,0.983061
37,0.5,3.8553,0.166,2.6852,25.92,4.8888,0.981496
40,0.5,3.8417,0.1658,2.3931,26.36,4.9271,0.983708
43,0.5,3.8462,0.1627,2.5842,26.56,4.908,0.983007
46,0.5,3.872,0.1655,2.356,25.33,4.913,0.981671
49,0.5,3.8568,0.1636,2.3908,25.74,4.9079,0.979876
52,0.5,3.8647,0.1649,2.4289,25.76,4.9123,0.980257
55,0.5,3.8685,0.1707,2.5059,25.45,4.8932,0.977376
58,0.5,3.8527,0.1677,2.3003,25.81,4.8761,0.978045
61,0.5,3.8561,0.1687,2.5134,26.83,4.8847,0.977752
64,0.5,3.8497,0.1633,2.2348,25.66,4.8891,0.97887
67,0.5,3.8534,0.1739,2.2766,26.75,4.8661,0.974426
70,0.5,3.8713,0.1678,2.5578,25.7,4.8804,0.975944
73,0.5,3.8699,0.1679,2.5999,26.44,4.8603,0.974825
76,0.5,3.8448,0.1702,2.3833,26.56,4.8647,0.974525
79,0.5,3.8511,0.1564,2.2824,25.8,4.8815,0.97356
82,0.5,3.8702,0.1725,2.4316,25.55,4.8796,0.972957
85,0.5,3.8471,0.1639,2.436,25.85,4.8541,0.972474
88,0.5,3.845,0.1594,2.2672,26.38,4.8604,0.971992
91,0.5,3.8587,0.1753,2.1854,25.53,4.8572,0.973028
94,0.5,3.8556,0.1787,2.5174,25.89,4.8574,0.972132
97,0.5,3.8374,0.1743,2.4627,26.49,4.8535,0.971526
100,0.5,3.8498,0.1635,2.3853,25.85,4.8632,0.971887
103,0.5,3.876,0.1694,2.4377,25.55,4.8607,0.970696
106,0.5,3.8481,0.1674,2.3195,26.88,4.8249,0.968296
109,0.5,3.869,0.1748,2.3964,26.46,4.8356,0.969335
112,0.5,3.8236,0.1748,2.5468,26.87,4.8237,0.968895
115,0.5,3.8466,0.1679,2.4899,26.48,4.842,0.967518
118,0.5,3.8335,0.1727,2.291,25.42,4.8557,0.967631
121,0.5,3.8361,0.1732,2.4377,25.27,4.8394,0.968243
124,0.5,3.832,0.1628,2.3605,26.64,4.8463,0.969205
127,0.5,3.8405,0.1732,2.3615,26.22,4.8394,0.967643
130,0.5,3.8416,0.1685,2.411,25.35,4.8431,0.967386
133,0.5,3.8375,0.1753,2.4127,25.5,4.8401,0.966654
136,0.5,3.8621,0.1712,2.5177,25.92,4.8142,0.965819
139,0.5,3.8337,0.1658,2.3126,26.0,4.8184,0.965212
142,0.5,3.8411,0.1677,2.3516,27.37,4.8222,0.965553
145,0.5,3.8493,0.1724,2.4766,25.96,4.8415,0.964286
148,0.5,3.8531,0.18,2.4685,26.68,4.8166,0.964048
151,0.5,3.8469,0.177,2.4305,25.96,4.8232,0.964548
154,0.5,3.8564,0.1659,2.4217,26.26,4.8099,0.963379
157,0.5,3.8474,0.1684,2.2781,26.52,4.821,0.962454
160,0.5,3.8489,0.1734,2.4646,26.72,4.8197,0.963046
163,0.5,3.8414,0.1615,2.3638,25.84,4.7939,0.963624
166,0.5,3.8426,0.1678,2.3065,25.15,4.8104,0.962651
169,0.5,3.8587,0.172,2.6154,25.91,4.8089,0.963154
172,0.5,3.8506,0.1663,2.3788,26.24,4.7924,0.961808
175,0.5,3.8505,0.1637,2.5508,26.62,4.8201,0.961265
178,0.5,3.8412,0.1657,2.2762,25.31,4.8229,0.962258
181,0.5,3.8401,0.1823,2.4393,26.01,4.8065,0.960434
184,0.5,3.8541,0.1571,2.6123,26.36,4.8055,0.961375
187,0.5,3.847,0.1765,2.5169,26.16,4.8246,0.962541
190,0.5,3.8546,0.166,2.4587,26.68,4.8049,0.959575
193,0.5,3.8585,0.1774,2.3283,25.54,4.8168,0.958864
196,0.5,3.844,0.1717,2.3245,26.34,4.7969,0.959949
199,0.5,3.8436,0.1655,2.3384,25.72,4.8003,0.959429
202,0.5,3.8273,0.1814,2.2703,25.88,4.7824,0.957868
205,0.5,3.8419,0.1718,2.4916,26.15,4.8125,0.958078
208,0.5,3.8344,0.1667,2.3969,25.71,4.7792,0.957377
211,0.5,3.847,0.1679,2.4125,26.25,4.7769,0.958215
214,0.5,3.8424,0.172,2.4647,26.06,4.7973,0.957549
217,0.5,3.8441,0.1742,2.3281,26.08,4.7998,0.957978
220,0.5,3.8298,0.1714,2.331,25.57,4.782,0.956774
223,0.5,3.8415,0.1714,2.3293,26.97,4.7783,0.956256
226,0.5,3.8444,0.1773,2.3299,25.33,4.7491,0.955008
229,0.5,3.8376,0.1819,2.2514,25.79,4.7611,0.955445
232,0.5,3.8408,0.1692,2.4383,27.02,4.7777,0.956902
235,0.5,3.8258,0.1806,2.3585,25.86,4.779,0.95631
238,0.5,3.8283,0.1638,2.5923,25.82,4.7623,0.954664
241,0.5,3.8411,0.1669,2.4285,26.83,4.7705,0.95541
244,0.5,3.8382,0.1672,2.3685,26.59,4.7703,0.955756
247,0.5,3.8294,0.1716,2.4574,26.46,4.7666,0.954066
250,0.5,3.86,0.1794,2.491,27.26,4.7832,0.955452
253,0.5,3.8365,0.1735,2.5336,25.32,4.7709,0.952917
256,0.5,3.841,0.1732,2.3371,25.38,4.7516,0.953501
259,0.5,3.8371,0.1728,2.2968,26.88,4.761,0.953853
262,0.5,3.8217,0.1715,2.4616,26.53,4.7519,0.952883
265,0.5,3.8391,0.1723,2.2997,26.62,4.7657,0.952976
268,0.5,3.8315,0.1697,2.3914,25.87,4.7744,0.951633
271,0.5,3.8459,0.171,2.5676,25.56,4.7714,0.952126
274,0.5,3.8383,0.1809,2.3766,25.75,4.7736,0.95381
277,0.5,3.8263,0.1802,2.5108,26.94,4.7571,0.951653
280,0.5,3.8494,0.1818,2.4819,26.12,4.7599,0.952838
283,0.5,3.8377,0.1841,2.2795,25.62,4.7524,0.951833
286,0.5,3.8147,0.1787,2.326,26.23,4.7581,0.95181
289,0.5,3.8334,0.173,2.3751,27.21,4.751,0.950812
292,0.5,3.8378,0.1797,2.1076,26.55,4.7626,0.951163
295,0.5,3.8565,0.1742,2.3865,25.88,4.7539,0.949687
298,0.5,3.8344,0.1683,2.3395,26.68,4.7334,0.948174
301,0.5,3.829,0.167,2.198,26.28,4.7408,0.951328
304,0.5,3.8329,0.1757,2.3499,25.82,4.7383,0.948964
307,0.5,3.8329,0.1746,2.3566,26.37,4.7201,0.947781
310,0.5,3.8487,0.1738,2.4031,25.98,4.751,0.949676
313,0.5,3.8466,0.1825,2.3141,26.71,4.7385,0.94812
316,0.5,3.8296,0.1748,2.363,26.32,4.7399,0.948728
319,0.5,3.8497,0.1871,2.4307,26.4,4.7387,0.946742
322,0.5,3.8421,0.1862,2.2399,26.18,4.7308,0.945162
325,0.5,3.8372,0.1754,2.4828,26.15,4.7398,0.94807
328,0.5,3.8387,0.1761,2.3496,26.66,4.7371,0.947728
331,0.5,3.8255,0.1805,2.4603,25.65,4.7351,0.945994
334,0.5,3.8255,0.1753,2.2872,25.97,4.7297,0.946563
337,0.5,3.8383,0.1699,2.3716,25.34,4.7339,0.946223
340,0.5,3.8368,0.1733,2.3657,27.72,4.7189,0.94731
343,0.5,3.8178,0.1723,2.3158,26.2,4.7355,0.945355
346,0.5,3.8333,0.177,2.3051,26.97,4.7306,0.946743
349,0.5,3.8343,0.178,2.4249,27.08,4.7141,0.94509
352,0.5,3.8272,0.1797,2.3066,26.68,4.7204,0.944409
355,0.5,3.8193,0.182,2.4343,26.63,4.7327,0.945099
358,0.5,3.8288,0.1839,2.2025,26.49,4.7168,0.945019
361,0.5,3.8348,0.1826,2.5168,26.49,4.7074,0.943503
364,0.5,3.8302,0.1743,2.348,26.37,4.7458,0.946409
367,0.5,3.8243,0.1791,2.5419,26.38,4.721,0.944582
370,0.5,3.8254,0.1766,2.5686,26.51,4.7148,0.943459
373,0.5,3.8163,0.1811,2.3558,26.82,4.6991,0.941732
376,0.5,3.8152,0.1769,2.2331,27.14,4.7204,0.943348
379,0.5,3.8327,0.1747,2.2893,26.34,4.7141,0.942747
382,0.5,3.8241,0.184,2.5334,26.26,4.7288,0.94381
385,0.5,3.8369,0.1756,2.4154,27.95,4.7329,0.944799
388,0.5,3.8294,0.1804,2.2484,27.23,4.7113,0.943039
391,0.5,3.8344,0.1745,2.1423,26.61,4.7263,0.943058
394,0.5,3.817,0.1711,2.1987,26.6,4.7129,0.940362
397,0.5,3.8241,0.1788,2.2575,25.74,4.6982,0.941559
400,0.5,3.8191,0.1725,2.3748,25.68,4.7088,0.941616
403,0.5,3.8375,0.1792,2.406,25.95,4.7052,0.940359
406,0.5,3.8282,0.1766,2.3771,25.9,4.7054,0.941829
409,0.5,3.818,0.1738,2.3439,26.07,4.6942,0.940264
412,0.5,3.8339,0.1769,2.4575,26.44,4.724,0.940068
415,0.5,3.8232,0.1778,2.3527,26.85,4.6811,0.940067
418,0.5,3.8162,0.1739,2.6451,26.12,4.7128,0.940071
421,0.5,3.831,0.1763,2.4431,27.92,4.7066,0.940364
424,0.5,3.8189,0.1721,2.3251,26.46,4.6906,0.938731
427,0.5,3.828,0.1835,2.2414,26.43,4.6865,0.937128
430,0.5,3.8434,0.1823,2.3835,25.88,4.7285,0.942174
433,0.5,3.8349,0.167,2.2876,26.47,4.6986,0.9393
436,0.5,3.8248,0.178,2.4093,25.87,4.7056,0.939784
439,0.5,3.8288,0.1808,2.3659,26.2,4.6955,0.938481
442,0.5,3.8258,0.183,2.2551,25.74,4.7069,0.938345
445,0.5,3.8347,0.1721,2.4027,25.77,4.7011,0.938971
448,0.5,3.8287,0.1802,2.3919,26.82,4.6745,0.937971
451,0.5,3.8459,0.1836,2.3711,27.0,4.7029,0.938481
454,0.5,3.8444,0.1763,2.2374,26.52,4.7013,0.937297
457,0.5,3.8404,0.1831,2.3849,26.63,4.6914,0.937349
460,0.5,3.8269,0.175,2.2305,26.24,4.6933,0.937406
463,0.5,3.8198,0.1774,2.3171,25.69,4.6831,0.9371
466,0.5,3.821,0.1741,2.341,26.19,4.6799,0.937669
469,0.5,3.8241,0.1755,2.5184,26.2,4.6857,0.937787
472,0.5,3.8348,0.1768,2.1744,26.45,4.6803,0.937917
475,0.5,3.8185,0.1748,2.2809,25.93,4.678,0.936686
478,0.5,3.8272,0.1779,2.2541,26.82,4.667,0.935166
481,0.5,3.816,0.1821,2.0598,25.43,4.6642,0.933831
484,0.5,3.823,0.1772,2.282,26.63,4.6812,0.935582
487,0.5,3.8244,0.1858,2.2669,26.83,4.6849,0.935496
490,0.5,3.818,0.1779,2.1769,27.23,4.6778,0.936349
493,0.5,3.8141,0.188,2.4326,27.26,4.6763,0.935743
496,0.5,3.8079,0.19,2.4241,26.47,4.6669,0.933167
499,0.5,3.8372,0.1829,2.3416,27.71,4.6666,0.933753
2,1.0,3.8512,0.1713,4.9302,27.73,4.9529,0.98792
5,1.0,3.8345,0.1788,4.8403,28.32,4.8917,0.978261
8,1.0,3.8366,0.1675,4.9873,28.63,4.868,0.974281
11,1.0,3.8257,0.1761,4.7028,28.36,4.8575,0.970847
14,1.0,3.8356,0.1806,4.6382,28.4,4.8238,0.966987
17,1.0,3.8202,0.1836,4.7513,28.83,4.8306,0.964405
20,1.0,3.8166,0.178,4.9081,28.67,4.8198,0.960651
23,1.0,3.8149,0.1855,4.8734,29.29,4.7681,0.955655
26,1.0,3.7854,0.1815,4.6738,28.37,4.7614,0.955534
29,1.0,3.8022,0.1874,4.6285,28.35,4.768,0.952052
32,1.0,3.8178,0.1946,4.7017,29.01,4.7498,0.948538
35,1.0,3.7995,0.1902,4.8224,28.23,4.7369,0.946479
38,1.0,3.8101,0.1811,4.6483,28.92,4.7455,0.946595
41,1.0,3.7878,0.1924,4.6983,30.02,4.7233,0.943116
44,1.0,3.8014,0.1876,4.6208,29.31,4.723,0.942246
47,1.0,3.803,0.1907,4.6151,28.66,4.7016,0.940253
50,1.0,3.8155,0.1845,4.5645,28.06,4.6912,0.935962
53,1.0,3.7963,0.1909,4.6816,28.1,4.6772,0.937397
56,1.0,3.8134,0.1925,4.8121,27.84,4.6587,0.934419
59,1.0,3.7907,0.1886,4.705,28.55,4.6629,0.932427
62,1.0,3.7976,0.1918,4.6398,28.71,4.6356,0.929508
65,1.0,3.7854,0.1916,4.7335,28.35,4.6487,0.929467
68,1.0,3.7959,0.1793,4.7028,28.59,4.6359,0.926922
71,1.0,3.7939,0.1947,4.445,28.6,4.6332,0.924521
74,1.0,3.7893,0.1902,4.6255,28.79,4.6273,0.922274
77,1.0,3.7887,0.1872,4.7852,28.47,4.6346,0.923117
80,1.0,3.7956,0.1835,4.7144,28.02,4.6129,0.919807
83,1.0,3.7908,0.2038,4.6793,28.4,4.5972,0.919544
86,1.0,3.8022,0.1856,4.6376,28.23,4.5988,0.918818
89,1.0,3.7964,0.205,4.5614,28.15,4.5593,0.914341
92,1.0,3.7713,0.1952,4.5241,29.42,4.5616,0.915459
95,1.0,3.7838,0.2011,4.5942,28.72,4.5808,0.914351
98,1.0,3.7819,0.1893,4.5002,28.08,4.5606,0.913957
101,1.0,3.7984,0.197,4.6276,28.34,4.5415,0.909876
104,1.0,3.7647,0.1986,4.3551,29.16,4.5534,0.910578
107,1.0,3.775,0.2,4.489,28.9,4.5369,0.907747
110,1.0,3.7756,0.1875,4.5508,28.9,4.5569,0.906956
113,1.0,3.7729,0.199,4.5293,29.14,4.5205,0.904401
116,1.0,3.786,0.2038,4.6114,29.15,4.521,0.904832
119,1.0,3.7584,0.1924,4.5456,28.76,4.4961,0.903493
122,1.0,3.7599,0.1877,4.5976,29.28,4.5035,0.902351
125,1.0,3.748,0.201,4.6412,28.66,4.4836,0.89966
128,1.0,3.7712,0.2005,4.3957,29.17,4.5063,0.898657
131,1.0,3.7581,0.1947,4.5372,28.6,4.4852,0.898148
134,1.0,3.753,0.1932,4.359,28.26,4.4823,0.896147
137,1.0,3.7625,0.1954,4.4381,28.71,4.4808,0.895613
140,1.0,3.7775,0.2037,4.3727,28.58,4.4664,0.893893
143,1.0,3.7624,0.2007,4.3356,28.23,4.4811,0.895039
146,1.0,3.752,0.1952,4.3823,28.87,4.4681,0.891244
149,1.0,3.7703,0.2054,4.3784,29.22,4.4393,0.891679
152,1.0,3.7693,0.1988,4.3174,28.1,4.4611,0.891775
155,1.0,3.7709,0.2056,4.3276,28.64,4.4473,0.889111
158,1.0,3.756,0.2083,4.4923,27.62,4.4428,0.887712
161,1.0,3.7597,0.2079,4.3718,29.77,4.4362,0.886522
164,1.0,3.773,0.2122,4.7491,28.3,4.4226,0.886776
167,1.0,3.7729,0.2069,4.3291,28.67,4.4152,0.883094
170,1.0,3.7524,0.2083,4.3686,28.55,4.4194,0.884066
173,1.0,3.7475,0.2102,4.4616,27.43,4.4077,0.881976
176,1.0,3.7597,0.2066,4.3049,28.94,4.409,0.88138
179,1.0,3.7597,0.2025,4.2459,29.38,4.3982,0.879928
182,1.0,3.7662,0.2038,4.2951,28.9,4.4191,0.880985
185,1.0,3.7503,0.2131,4.3754,28.99,4.3977,0.879079
188,1.0,3.7564,0.2008,4.3075,28.98,4.4136,0.879123
191,1.0,3.7561,0.2082,4.2372,29.7,4.3628,0.877816
194,1.0,3.7506,0.2097,4.3511,28.93,4.3596,0.875587
197,1.0,3.7684,0.2057,4.4042,29.05,4.3713,0.875274
200,1.0,3.7585,0.2006,4.059,28.65,4.3655,0.871951
203,1.0,3.7498,0.2105,4.5566,27.98,4.3662,0.874196
206,1.0,3.7406,0.2113,4.1982,29.59,4.3427,0.870896
209,1.0,3.7584,0.2094,4.3811,28.89,4.3493,0.872034
212,1.0,3.7355,0.2134,4.3414,27.93,4.3493,0.870913
215,1.0,3.7406,0.2102,4.4956,29.03,4.3507,0.868931
218,1.0,3.7312,0.2017,4.2761,29.29,4.3465,0.86783
221,1.0,3.7565,0.2043,4.2632,28.89,4.3498,0.867885
224,1.0,3.7514,0.2115,4.5196,28.79,4.335,0.864948
227,1.0,3.749,0.2135,4.3625,28.79,4.3235,0.866351
230,1.0,3.7193,0.2203,4.3607,29.28,4.3234,0.866236
233,1.0,3.7501,0.2038,4.2334,28.7,4.3138,0.86469
236,1.0,3.7297,0.1987,4.3342,28.94,4.3202,0.862827
239,1.0,3.7224,0.2,4.3363,28.74,4.3081,0.862733
242,1.0,3.7435,0.2192,4.255,29.03,4.2995,0.860893
245,1.0,3.7468,0.214,4.3124,28.41,4.3056,0.860337
248,1.0,3.737,0.2043,4.3382,29.27,4.2903,0.859223
251,1.0,3.7208,0.2146,4.2699,28.33,4.2951,0.858265
254,1.0,3.7321,0.2178,4.3433,28.56,4.3144,0.858734
257,1.0,3.734,0.2165,4.1848,28.86,4.3083,0.857768
260,1.0,3.7253,0.2148,4.2295,28.87,4.2898,0.856643
263,1.0,3.7279,0.2119,4.1658,28.73,4.3017,0.856707
266,1.0,3.739,0.2028,4.2715,29.13,4.2739,0.854465
269,1.0,3.7346,0.2034,4.4189,28.62,4.2696,0.85495
272,1.0,3.7432,0.2163,4.1094,28.68,4.2585,0.852786
275,1.0,3.7187,0.2138,4.1048,29.86,4.2641,0.853285
278,1.0,3.7382,0.2138,4.1922,28.82,4.2731,0.85128
281,1.0,3.7454,0.2113,4.1504,28.77,4.2607,0.850817
284,1.0,3.7204,0.2077,4.3185,28.83,4.2577,0.850382
287,1.0,3.7387,0.215,4.36,29.67,4.2645,0.851855
290,1.0,3.7213,0.2155,4.1084,29.56,4.2519,0.848973
293,1.0,3.7228,0.2172,4.0886,28.88,4.2511,0.847666
296,1.0,3.7342,0.216,4.0037,28.6,4.2435,0.84714
299,1.0,3.7228,0.2147,4.2098,29.01,4.224,0.844262
302,1.0,3.7401,0.2144,4.2999,29.43,4.2051,0.844844
305,1.0,3.7266,0.2206,4.3161,29.23,4.2133,0.844756
308,1.0,3.7375,0.2192,4.0059,29.05,4.2184,0.844742
311,1.0,3.7174,0.2104,4.2065,28.71,4.1973,0.842823
314,1.0,3.7334,0.2243,4.1241,29.61,4.2141,0.841864
317,1.0,3.7288,0.221,4.1613,28.57,4.1904,0.840106
320,1.0,3.7324,0.2162,4.334,29.25,4.2118,0.839776
323,1.0,3.7189,0.2202,4.2095,29.71,4.2215,0.841839
326,1.0,3.7297,0.2229,4.2317,29.78,4.1851,0.839805
329,1.0,3.7361,0.218,4.0918,29.88,4.1718,0.838534
332,1.0,3.7222,0.2306,3.9794,29.2,4.1962,0.837874
335,1.0,3.731,0.221,4.1171,28.53,4.1891,0.838098
338,1.0,3.7419,0.2129,4.0791,28.38,4.1779,0.836453
341,1.0,3.7174,0.215,4.2649,28.34,4.1928,0.836414
344,1.0,3.715,0.2247,4.1418,28.98,4.1619,0.835057
347,1.0,3.721,0.227,4.0732,29.71,4.174,0.834519
350,1.0,3.7258,0.2143,4.0916,29.03,4.1689,0.833649
353,1.0,3.7151,0.2227,4.3324,28.5,4.1592,0.833013
356,1.0,3.7202,0.2224,4.0057,29.63,4.1644,0.832781
359,1.0,3.7387,0.216,4.2137,29.38,4.1566,0.832387
362,1.0,3.7067,0.2152,4.1832,29.15,4.1394,0.830435
365,1.0,3.7113,0.2217,4.0646,28.25,4.1737,0.83128
368,1.0,3.7376,0.2252,4.2644,29.62,4.1434,0.829692
371,1.0,3.7123,0.2162,4.4467,29.25,4.1424,0.830634
374,1.0,3.7117,0.2173,4.2168,29.67,4.1482,0.828339
377,1.0,3.6954,0.232,4.2605,28.88,4.1275,0.827059
380,1.0,3.6964,0.2158,4.0543,29.65,4.1327,0.826376
383,1.0,3.7229,0.2218,4.131,28.81,4.1306,0.824608
386,1.0,3.7021,0.2234,4.0601,29.89,4.1232,0.825152
389,1.0,3.7048,0.2212,4.1517,28.4,4.138,0.825222
392,1.0,3.689,0.223,4.1804,28.18,4.1227,0.823798
395,1.0,3.7222,0.2215,4.0672,28.54,4.1319,0.82321
398,1.0,3.7159,0.2236,4.2442,30.14,4.094,0.821822
401,1.0,3.712,0.2242,4.0192,29.1,4.1044,0.820877
404,1.0,3.707,0.2178,4.1967,28.72,4.1032,0.82083
407,1.0,3.71,0.2235,4.0432,29.91,4.0971,0.820681
410,1.0,3.7006,0.2223,4.0016,30.02,4.1032,0.821055
413,1.0,3.7035,0.2325,4.0769,29.08,4.095,0.819048
416,1.0,3.7009,0.2349,4.1349,29.84,4.079,0.818356
419,1.0,3.7057,0.2283,4.1532,29.27,4.092,0.817887
422,1.0,3.7031,0.2239,4.2221,29.35,4.0854,0.818583
425,1.0,3.7235,0.2274,4.0331,28.51,4.0955,0.816452
428,1.0,3.7028,0.2288,4.1865,29.73,4.0847,0.815547
431,1.0,3.7204,0.2267,4.2039,29.87,4.0799,0.817429
434,1.0,3.7001,0.225,4.0536,29.6,4.0847,0.815001
437,1.0,3.7052,0.225,4.0384,29.21,4.0526,0.81408
440,1.0,3.7211,0.2211,4.0302,29.73,4.0665,0.81283
443,1.0,3.6915,0.2221,4.1653,29.95,4.0638,0.812847
446,1.0,3.6955,0.2397,3.9423,29.42,4.0744,0.814843
449,1.0,3.699,0.2181,4.0854,29.31,4.0418,0.810448
452,1.0,3.6919,0.2359,4.069,29.55,4.0499,0.812061
455,1.0,3.6759,0.2258,4.0637,28.8,4.0495,0.810014
458,1.0,3.6802,0.2289,4.0109,28.68,4.0513,0.809858
461,1.0,3.6876,0.2202,4.0569,29.68,4.043,0.809246
464,1.0,3.6846,0.224,4.0889,29.78,4.0641,0.808626
467,1.0,3.704,0.2234,4.0849,29.3,4.053,0.811077
470,1.0,3.6858,0.2294,3.8997,29.78,4.022,0.804928
473,1.0,3.6964,0.2262,3.8378,29.86,4.0427,0.805646
476,1.0,3.7012,0.2232,3.8937,29.22,4.0139,0.80638
479,1.0,3.6875,0.2296,4.0604,29.26,4.0153,0.804874
482,1.0,3.6707,0.227,3.9981,29.05,4.0281,0.804182
485,1.0,3.691,0.2145,4.1842,29.28,4.0081,0.803419
488,1.0,3.676,0.2244,4.089,29.52,4.0234,0.804353
491,1.0,3.6914,0.2217,4.0582,29.87,4.0173,0.801785
494,1.0,3.6835,0.2399,4.0138,30.51,3.9965,0.80206
497,1.0,3.6952,0.2314,3.918,29.81,4.034,0.80356
500,1.0,3.7033,0.2233,4.0577,29.59,3.9992,0.802174
3,1.5,3.8046,0.1851,7.482,32.82,4.8447,0.968548
6,1.5,3.7929,0.1895,7.0093,32.07,4.7687,0.953604
9,1.5,3.7938,0.202,7.0424,31.86,4.7277,0.943833
12,1.5,3.7824,0.1968,7.0766,32.85,4.6642,0.935861
15,1.5,3.7652,0.1935,6.9949,32.14,4.6452,0.929129
18,1.5,3.7531,0.2089,7.1438,32.49,4.5981,0.921336
21,1.5,3.7503,0.2062,7.0241,32.4,4.5729,0.916143
24,1.5,3.7486,0.2066,6.8272,32.81,4.5594,0.910519
27,1.5,3.7498,0.2007,6.801,31.88,4.5331,0.904886
30,1.5,3.7436,0.2039,6.911,32.22,4.51,0.900246
33,1.5,3.7134,0.2109,6.5645,32.84,4.467,0.894349
36,1.5,3.7333,0.2061,6.5957,32.43,4.4403,0.891339
39,1.5,3.7373,0.2122,6.6319,32.06,4.4087,0.886707
42,1.5,3.7137,0.2204,6.5588,32.71,4.407,0.882107
45,1.5,3.7272,0.2218,6.6728,32.47,4.389,0.876813
48,1.5,3.7185,0.2146,6.4533,32.92,4.3786,0.874313
51,1.5,3.73,0.2249,6.3248,31.69,4.3562,0.869275
54,1.5,3.7307,0.22,6.4612,32.37,4.3464,0.86667
57,1.5,3.7166,0.221,6.3778,32.21,4.3125,0.862724
60,1.5,3.7316,0.2154,6.2246,32.32,4.2669,0.856372
63,1.5,3.7081,0.2287,6.4563,33.09,4.281,0.856072
66,1.5,3.6888,0.2218,6.2817,32.46,4.2561,0.849598
69,1.5,3.7076,0.2252,6.1779,32.56,4.2421,0.847766
72,1.5,3.7138,0.2244,6.2681,33.23,4.1944,0.844124
75,1.5,3.6914,0.2249,6.0937,32.04,4.216,0.842525
78,1.5,3.6837,0.2325,6.2033,32.8,4.1874,0.838439
81,1.5,3.6851,0.2275,6.342,31.49,4.2061,0.836226
84,1.5,3.7032,0.2242,6.2872,32.33,4.1485,0.832448
87,1.5,3.663,0.2323,6.1995,32.59,4.1555,0.831242
90,1.5,3.6763,0.2357,6.143,32.94,4.1195,0.825951
93,1.5,3.6815,0.2257,6.1704,32.17,4.132,0.824168
96,1.5,3.7031,0.2314,6.172,31.89,4.1156,0.820818
99,1.5,3.6767,0.2289,6.2767,32.69,4.0803,0.817295
102,1.5,3.6688,0.2366,6.1779,32.66,4.0828,0.81463
105,1.5,3.6784,0.2436,6.0316,31.55,4.0649,0.812091
108,1.5,3.6626,0.2462,6.1246,32.25,4.0368,0.809236
111,1.5,3.6803,0.224,5.9903,32.28,4.0323,0.808303
114,1.5,3.6652,0.2401,6.1033,32.33,4.0207,0.804233
117,1.5,3.6564,0.2349,6.1441,33.18,4.0152,0.803332
120,1.5,3.6738,0.2402,6.1584,32.85,3.9979,0.797853
123,1.5,3.6691,0.2433,6.0622,32.29,3.9907,0.797477
126,1.5,3.659,0.2431,5.7741,32.26,3.955,0.795767
129,1.5,3.66,0.2419,5.734,32.33,3.9588,0.794096
132,1.5,3.6468,0.2461,5.9238,32.09,3.9506,0.791022
135,1.5,3.6453,0.2474,5.8635,32.6,3.921,0.78681
138,1.5,3.6601,0.2417,5.7339,32.95,3.9222,0.784459
141,1.5,3.6696,0.241,6.1119,32.4,3.9162,0.78237
144,1.5,3.6408,0.2552,6.044,33.14,3.903,0.780092
147,1.5,3.6452,0.2382,5.8611,32.34,3.8945,0.778989
150,1.5,3.6382,0.2417,5.812,32.44,3.8627,0.775481
153,1.5,3.6543,0.2416,5.6907,33.3,3.892,0.773275
156,1.5,3.6443,0.2487,5.8702,33.16,3.8597,0.770974
159,1.5,3.627,0.2551,5.6225,33.09,3.8393,0.769204
162,1.5,3.6379,0.2541,5.6446,32.71,3.8336,0.76683
165,1.5,3.6222,0.2613,5.7278,32.48,3.8195,0.76401
168,1.5,3.6432,0.2547,5.8897,32.65,3.8328,0.763855
171,1.5,3.6299,0.2512,5.8369,31.96,3.8194,0.763083
174,1.5,3.638,0.2509,5.721,32.39,3.7681,0.756662
177,1.5,3.6498,0.2565,5.8282,32.78,3.789,0.756608
180,1.5,3.6375,0.2636,5.7226,33.43,3.7762,0.755559
183,1.5,3.6328,0.246,5.9061,33.41,3.756,0.751331
186,1.5,3.638,0.2503,5.7296,32.9,3.7446,0.749795
189,1.5,3.6234,0.2544,5.6765,33.48,3.7458,0.748965
192,1.5,3.6366,0.2521,5.674,31.51,3.7443,0.747376
195,1.5,3.6392,0.2562,5.6891,32.79,3.7208,0.744073
198,1.5,3.6203,0.2604,5.3704,32.39,3.7392,0.74359
201,1.5,3.626,0.2535,5.3836,32.9,3.7069,0.741059
204,1.5,3.6264,0.2473,5.5137,32.0,3.7206,0.737878
207,1.5,3.6051,0.254,5.595,33.02,3.6797,0.736824
210,1.5,3.6129,0.2625,5.4608,33.8,3.704,0.735902
213,1.5,3.6267,0.2562,5.401,32.79,3.6703,0.734203
216,1.5,3.6015,0.2566,5.4758,32.59,3.6382,0.728472
219,1.5,3.6033,0.2577,5.4863,32.43,3.6231,0.728517
222,1.5,3.5944,0.259,5.7611,33.13,3.6517,0.7289
225,1.5,3.5971,0.2559,5.3507,32.43,3.6414,0.725437
228,1.5,3.6155,0.2663,5.6112,32.67,3.6209,0.725126
231,1.5,3.6004,0.2591,5.399,33.15,3.6191,0.723189
234,1.5,3.5954,0.2666,5.3953,33.65,3.6024,0.720841
237,1.5,3.6004,0.2629,5.3531,32.52,3.5972,0.719455
240,1.5,3.5904,0.2648,5.222,33.13,3.5885,0.716447
243,1.5,3.5857,0.2605,5.2646,33.5,3.5779,0.714071
246,1.5,3.5841,0.2721,5.3479,32.85,3.589,0.714329
249,1.5,3.5919,0.2626,5.2789,33.41,3.5595,0.711889
252,1.5,3.5851,0.2645,5.5003,32.63,3.5746,0.710112
255,1.5,3.6016,0.2655,5.1623,32.63,3.5201,0.708112
258,1.5,3.6014,0.2702,5.3057,33.71,3.5265,0.707269
261,1.5,3.5973,0.2734,5.3106,32.48,3.499,0.703239
264,1.5,3.5989,0.2726,5.2661,32.34,3.5262,0.702518
267,1.5,3.5948,0.2713,5.2358,32.54,3.494,0.699825
270,1.5,3.5876,0.2771,5.1279,32.53,3.5101,0.70123
273,1.5,3.6027,0.2682,5.1329,33.43,3.4915,0.699027
276,1.5,3.5824,0.2732,5.3397,32.9,3.4842,0.697511
279,1.5,3.5883,0.2615,5.2441,33.08,3.4709,0.694758
282,1.5,3.5768,0.2712,5.2357,33.38,3.4572,0.692625
285,1.5,3.5933,0.2725,5.1078,32.97,3.4449,0.690735
288,1.5,3.5934,0.2658,5.0468,33.13,3.4341,0.690043
291,1.5,3.5699,0.2763,5.2059,33.06,3.4368,0.688976
294,1.5,3.5863,0.278,5.0368,32.49,3.4324,0.685256
297,1.5,3.5716,0.2695,5.1072,32.64,3.4407,0.686109
300,1.5,3.5584,0.2733,5.1411,33.76,3.3994,0.683556
303,1.5,3.5718,0.2761,5.0575,32.97,3.4013,0.682059
306,1.5,3.5755,0.2746,5.1228,33.55,3.3925,0.680139
309,1.5,3.5875,0.275,5.1219,33.03,3.396,0.678119
312,1.5,3.5559,0.2802,5.2382,33.6,3.4094,0.678074
315,1.5,3.5774,0.269,5.127,33.44,3.3764,0.675808
318,1.5,3.5757,0.2773,5.0674,32.63,3.3698,0.674514
321,1.5,3.5516,0.2843,5.0225,33.81,3.3755,0.673902
324,1.5,3.5433,0.2797,4.8998,33.09,3.3673,0.672561
327,1.5,3.5615,0.2772,4.9582,34.32,3.3639,0.669505
330,1.5,3.5496,0.2832,5.0194,33.41,3.3234,0.668114
333,1.5,3.5525,0.2906,5.044,33.71,3.3325,0.668167
336,1.5,3.5557,0.2803,4.9478,33.49,3.3372,0.664741
339,1.5,3.5504,0.2889,5.1055,33.32,3.3174,0.661912
342,1.5,3.5412,0.282,4.8526,32.93,3.2953,0.661423
345,1.5,3.5644,0.2867,4.9511,33.34,3.2948,0.659691
348,1.5,3.5373,0.2836,4.7408,33.69,3.2902,0.658571
351,1.5,3.5444,0.2741,4.7985,32.98,3.2564,0.655238
354,1.5,3.5612,0.2773,4.9614,33.33,3.2796,0.655942
357,1.5,3.5319,0.2856,4.8406,33.63,3.2617,0.653812
360,1.5,3.5502,0.2786,4.9501,33.15,3.2634,0.654199
363,1.5,3.542,0.29,5.0507,32.96,3.2757,0.652093
366,1.5,3.5451,0.2852,4.8933,33.15,3.265,0.650999
369,1.5,3.5495,0.2888,4.7805,33.54,3.2297,0.647887
372,1.5,3.5402,0.2895,4.854,34.47,3.2171,0.647108
375,1.5,3.5415,0.2844,5.1784,32.71,3.2339,0.645418
378,1.5,3.5185,0.2857,4.9176,33.35,3.2119,0.644521
381,1.5,3.5475,0.2724,4.722,34.09,3.2244,0.642986
384,1.5,3.5529,0.2851,4.7407,33.93,3.21,0.641714
387,1.5,3.529,0.2854,4.6014,33.84,3.1883,0.640318
390,1.5,3.5274,0.2812,4.816,33.63,3.199,0.640146
393,1.5,3.5575,0.2933,4.7805,33.83,3.1819,0.638158
396,1.5,3.5363,0.277,4.7513,32.99,3.1778,0.635963
399,1.5,3.5365,0.2891,4.9153,32.83,3.1685,0.634385
402,1.5,3.5273,0.2891,4.7528,32.61,3.1883,0.635657
405,1.5,3.5396,0.2856,4.5685,33.46,3.1589,0.632853
408,1.5,3.5314,0.2866,4.7964,32.83,3.1753,0.630644
411,1.5,3.5326,0.2858,4.8147,32.41,3.1401,0.628775
414,1.5,3.5261,0.2907,4.9192,32.83,3.1387,0.63039
417,1.5,3.5091,0.2971,4.9558,34.12,3.1323,0.627367
420,1.5,3.5158,0.2989,4.6245,33.64,3.1366,0.625059
423,1.5,3.5374,0.2962,4.7486,34.22,3.1402,0.624636
426,1.5,3.5275,0.2936,4.7555,33.17,3.1093,0.621497
429,1.5,3.5154,0.2955,4.7056,32.69,3.1219,0.621946
432,1.5,3.5156,0.2923,4.8108,32.49,3.0939,0.622043
435,1.5,3.5064,0.3029,4.3952,34.14,3.0897,0.619476
438,1.5,3.529,0.2959,4.5955,34.17,3.0959,0.617267
441,1.5,3.5307,0.2956,4.6592,33.2,3.0696,0.61786
444,1.5,3.5401,0.2885,4.6922,33.66,3.0917,0.615008
447,1.5,3.5203,0.2878,4.4915,33.83,3.0703,0.613849
450,1.5,3.5383,0.2893,4.582,34.06,3.0498,0.612312
453,1.5,3.524,0.2999,4.6386,33.46,3.0509,0.609889
456,1.5,3.5154,0.2878,4.413,33.56,3.0402,0.60932
459,1.5,3.519,0.3007,4.6109,33.48,3.0289,0.606535
462,1.5,3.5121,0.3014,4.5242,33.74,3.0568,0.608228
465,1.5,3.5151,0.2971,4.6034,33.77,3.0166,0.604735
468,1.5,3.5131,0.2884,4.4521,33.98,3.0255,0.605166
471,1.5,3.5107,0.2956,4.6168,34.35,3.0053,0.603786
474,1.5,3.5008,0.3025,4.5197,33.98,3.0149,0.603564
477,1.5,3.4898,0.2906,4.5378,33.76,3.0068,0.601095
480,1.5,3.5023,0.2938,4.5574,33.54,2.994,0.600097
483,1.5,3.4917,0.311,4.5339,33.17,2.9903,0.597449
486,1.5,3.4998,0.3025,4.4567,33.31,2.9856,0.596259
489,1.5,3.4973,0.3024,4.4639,33.79,2.9646,0.594893
492,1.5,3.5039,0.3045,4.4822,33.83,2.9602,0.594461
495,1.5,3.4966,0.3033,4.5091,32.97,2.9854,0.594093
498,1.5,3.4964,0.3107,4.3729,34.17,2.9543,0.592097
1,2.0,3.7795,0.1898,9.666,37.73,4.8292,0.96815
4,2.0,3.7495,0.2177,9.2422,37.54,4.6817,0.934574
7,2.0,3.7387,0.2158,9.1591,37.89,4.5717,0.91374
10,2.0,3.7143,0.2209,8.8029,36.88,4.4871,0.895116
13,2.0,3.7252,0.2335,8.7745,37.98,4.3925,0.880805
16,2.0,3.6846,0.2353,8.824,37.08,4.3527,0.870234
19,2.0,3.706,0.2349,8.6999,37.47,4.2936,0.859364
22,2.0,3.6838,0.2407,8.598,36.87,4.2581,0.84759
25,2.0,3.6667,0.2367,8.3133,36.44,4.1866,0.836492
28,2.0,3.6719,0.2413,8.1554,37.83,4.1304,0.828085
31,2.0,3.6525,0.2462,8.166,37.12,4.0909,0.818308
34,2.0,3.6625,0.2454,8.0243,37.09,4.0338,0.807332
37,2.0,3.6332,0.2471,8.0568,37.47,4.0122,0.802813
40,2.0,3.6413,0.2432,7.8651,36.69,3.9624,0.794897
43,2.0,3.6307,0.2519,7.7733,36.7,3.9175,0.785689
46,2.0,3.6142,0.2611,7.7377,38.01,3.8828,0.780285
49,2.0,3.6106,0.2602,7.5604,37.83,3.8626,0.77171
52,2.0,3.6147,0.2655,7.8487,37.58,3.8186,0.765635
55,2.0,3.5974,0.2684,7.5892,37.59,3.7894,0.75667
58,2.0,3.6027,0.2633,7.5631,37.64,3.7725,0.753003
61,2.0,3.5971,0.2667,7.578,38.14,3.7184,0.746687
64,2.0,3.5909,0.2631,7.2608,37.52,3.6833,0.738675
67,2.0,3.5816,0.2731,7.4082,37.22,3.6644,0.733666
70,2.0,3.5981,0.2742,7.2697,37.02,3.627,0.725893
73,2.0,3.5923,0.2666,7.2219,37.16,3.6042,0.72105
76,2.0,3.5661,0.2765,7.2327,37.7,3.5701,0.715489
79,2.0,3.5717,0.2851,6.9084,37.46,3.542,0.709421
82,2.0,3.5588,0.28,7.0658,38.11,3.522,0.70449
85,2.0,3.5597,0.2833,6.9711,38.02,3.514,0.701146
88,2.0,3.5468,0.2774,6.831,38.63,3.4794,0.694991
91,2.0,3.5592,0.2804,7.0328,37.26,3.4447,0.689195
94,2.0,3.5434,0.281,6.8892,37.4,3.4299,0.683205
97,2.0,3.5309,0.2852,6.9183,37.95,3.3717,0.677162
100,2.0,3.5294,0.2876,6.7964,37.36,3.3665,0.673946
103,2.0,3.5303,0.2915,6.7864,36.66,3.3307,0.668488
106,2.0,3.53,0.2867,6.6552,37.56,3.317,0.666205
109,2.0,3.5391,0.2954,6.6173,37.73,3.3142,0.659797
112,2.0,3.5145,0.2949,6.5659,37.44,3.2775,0.654714
115,2.0,3.5007,0.2875,6.4927,38.14,3.2502,0.649456
118,2.0,3.5225,0.2921,6.6187,37.66,3.2414,0.64629
121,2.0,3.5138,0.2978,6.334,37.79,3.2015,0.640903
124,2.0,3.502,0.2929,6.2313,37.89,3.1905,0.63773
127,2.0,3.5053,0.2973,6.1902,37.45,3.1575,0.633213
130,2.0,3.5063,0.3025,6.3619,38.5,3.1428,0.627822
133,2.0,3.4933,0.309,6.2352,37.24,3.1239,0.624038
136,2.0,3.4991,0.3099,6.1774,37.38,3.0974,0.619076
139,2.0,3.4826,0.3011,6.1144,37.42,3.0764,0.615989
142,2.0,3.481,0.3099,6.0522,37.88,3.0565,0.611608
145,2.0,3.4891,0.3084,6.1117,37.75,3.0337,0.607371
148,2.0,3.4871,0.3039,6.0061,38.0,3.0067,0.602014
151,2.0,3.4689,0.3097,6.0985,37.98,2.9881,0.600146
154,2.0,3.4658,0.3126,5.7787,37.85,2.9858,0.595063
157,2.0,3.4607,0.303,5.8596,38.24,2.9762,0.591639
160,2.0,3.4741,0.3085,5.942,38.18,2.9427,0.587695
163,2.0,3.4827,0.312,6.0118,38.14,2.9132,0.584436
166,2.0,3.4716,0.3081,5.9315,37.95,2.9191,0.58121
169,2.0,3.4693,0.3217,5.6199,38.27,2.8711,0.575148
172,2.0,3.4409,0.3178,5.8073,37.75,2.8719,0.572495
175,2.0,3.4587,0.3207,5.7228,37.95,2.8429,0.567707
178,2.0,3.4389,0.32,5.6297,38.79,2.833,0.565738
181,2.0,3.4532,0.3289,5.6904,37.26,2.817,0.563049
184,2.0,3.4598,0.3238,5.3615,37.63,2.7792,0.557179
187,2.0,3.436,0.3181,5.7946,38.15,2.7673,0.554432
190,2.0,3.4276,0.316,5.5955,37.71,2.7339,0.549371
193,2.0,3.4379,0.3313,5.3546,37.26,2.7259,0.546431
196,2.0,3.4425,0.3282,5.3854,38.43,2.7237,0.54515
199,2.0,3.4237,0.3266,5.5091,39.04,2.7005,0.540133
202,2.0,3.4305,0.3252,5.3485,37.24,2.6938,0.53796
205,2.0,3.4208,0.3301,5.2896,38.47,2.6633,0.534289
208,2.0,3.4395,0.3287,5.1581,38.28,2.652,0.529131
211,2.0,3.4269,0.3313,5.3391,38.48,2.6354,0.52627
214,2.0,3.4219,0.3328,5.3343,38.64,2.6174,0.523011
217,2.0,3.4246,0.3371,5.3626,38.84,2.5762,0.517185
220,2.0,3.4247,0.327,5.2691,38.53,2.5985,0.515577
223,2.0,3.4139,0.3352,5.0662,38.0,2.5904,0.514839
226,2.0,3.4065,0.3328,5.1676,37.33,2.5748,0.50982
229,2.0,3.3963,0.3374,5.0837,38.99,2.5197,0.505066
232,2.0,3.4197,0.3423,4.7707,37.91,2.5221,0.501983
235,2.0,3.4012,0.3362,5.1155,38.65,2.5019,0.5
238,2.0,3.3905,0.3425,4.996,38.13,2.495,0.5
241,2.0,3.3991,0.3371,5.0487,37.88,2.502,0.5
244,2.0,3.3873,0.3351,4.9313,39.0,2.4915,0.5
247,2.0,3.419,0.342,5.1106,38.75,2.4975,0.5
250,2.0,3.3851,0.3404,5.1247,38.06,2.5014,0.5
253,2.0,3.4017,0.3448,4.8872,37.49,2.5127,0.5
256,2.0,3.3957,0.3441,4.8377,37.95,2.4879,0.5
259,2.0,3.3931,0.3329,4.8702,38.58,2.4854,0.5
262,2.0,3.3952,0.3481,4.8152,38.56,2.4948,0.5
265,2.0,3.4083,0.3416,5.0399,37.61,2.4963,0.5
268,2.0,3.4018,0.3307,5.0462,37.67,2.4989,0.5
271,2.0,3.4046,0.3468,5.1198,38.5,2.4971,0.5
274,2.0,3.4027,0.337,5.1069,38.27,2.4979,0.5
277,2.0,3.4067,0.3341,5.1404,37.85,2.5025,0.5
280,2.0,3.411,0.3409,4.947,38.05,2.508,0.5
283,2.0,3.4068,0.3346,5.1378,38.28,2.5215,0.5
286,2.0,3.3857,0.3304,4.9755,39.39,2.4848,0.5
289,2.0,3.3843,0.3417,4.9482,37.79,2.4946,0.5
292,2.0,3.3811,0.3392,5.0325,37.89,2.511,0.5
295,2.0,3.3698,0.3479,5.0795,38.83,2.5201,0.5
298,2.0,3.4158,0.3446,5.1057,38.78,2.4992,0.5
301,2.0,3.4029,0.3402,5.0931,38.65,2.4934,0.5
304,2.0,3.3901,0.3397,4.8426,39.26,2.5037,0.5
307,2.0,3.3945,0.337,4.872,38.07,2.4888,0.5
310,2.0,3.4032,0.3334,5.0995,38.04,2.4947,0.5
313,2.0,3.4142,0.3303,5.0667,38.74,2.5098,0.5
316,2.0,3.3997,0.3426,4.9664,38.69,2.5027,0.5
319,2.0,3.3993,0.3417,4.8564,38.12,2.5055,0.5
322,2.0,3.3895,0.339,4.9593,38.22,2.5185,0.5
325,2.0,3.3936,0.344,4.9245,39.09,2.5223,0.5
328,2.0,3.4029,0.3391,5.0635,38.65,2.4897,0.5
331,2.0,3.3959,0.3427,5.0944,38.66,2.502,0.5
334,2.0,3.3882,0.3422,5.1111,38.38,2.5076,0.5
337,2.0,3.3867,0.3465,5.0555,38.16,2.4838,0.5
340,2.0,3.3989,0.3422,5.0164,38.06,2.4926,0.5
343,2.0,3.4083,0.3363,4.916,38.56,2.4932,0.5
346,2.0,3.3888,0.3404,4.9345,37.76,2.5019,0.5
349,2.0,3.4049,0.3416,4.9938,39.39,2.5016,0.5
352,2.0,3.3981,0.3333,4.9148,38.32,2.5097,0.5
355,2.0,3.3898,0.3346,4.9299,39.06,2.5098,0.5
358,2.0,3.4119,0.3445,4.9306,39.29,2.5034,0.5
361,2.0,3.3806,0.3518,5.2269,38.15,2.5019,0.5
364,2.0,3.3662,0.3378,5.0764,38.73,2.4961,0.5
367,2.0,3.4048,0.3398,5.0907,39.54,2.4855,0.5
370,2.0,3.411,0.3394,5.0642,39.22,2.4962,0.5
373,2.0,3.3991,0.3409,4.8686,38.61,2.5004,0.5
376,2.0,3.3914,0.3434,4.9695,38.64,2.5062,0.5
379,2.0,3.4187,0.3375,4.9282,39.32,2.5078,0.5
382,2.0,3.3921,0.3497,5.0736,38.03,2.5093,0.5
385,2.0,3.3975,0.3344,4.9509,38.45,2.4887,0.5
388,2.0,3.4046,0.3446,5.0134,39.54,2.5068,0.5
391,2.0,3.3952,0.3402,5.0112,38.49,2.4954,0.5
394,2.0,3.4133,0.3371,4.9139,38.91,2.501,0.5
397,2.0,3.4058,0.3403,5.0479,39.26,2.4997,0.5
400,2.0,3.4012,0.336,4.9962,38.44,2.4979,0.5
403,2.0,3.4003,0.3368,4.9965,38.92,2.4949,0.5
406,2.0,3.3782,0.3397,4.832,38.99,2.4879,0.5
409,2.0,3.3942,0.3357,4.8187,37.99,2.4897,0.5
412,2.0,3.3976,0.3406,5.1287,38.89,2.4988,0.5
415,2.0,3.3762,0.3345,4.9373,38.84,2.5121,0.5
418,2.0,3.4186,0.3406,5.1099,39.49,2.4965,0.5
421,2.0,3.3878,0.3354,4.918,37.42,2.5034,0.5
424,2.0,3.3936,0.3456,5.0275,39.57,2.5091,0.5
427,2.0,3.4012,0.3344,5.0171,37.89,2.4886,0.5
430,2.0,3.3946,0.3423,5.1216,39.07,2.4928,0.5
433,2.0,3.4001,0.3443,4.8363,39.57,2.5252,0.5
436,2.0,3.4048,0.3354,4.9633,40.23,2.5003,0.5
439,2.0,3.4149,0.3383,5.2426,39.85,2.5037,0.5
442,2.0,3.4021,0.3449,5.1491,38.92,2.497,0.5
445,2.0,3.4084,0.3373,4.9902,38.59,2.4832,0.5
448,2.0,3.4118,0.3425,5.1114,39.02,2.472,0.5
451,2.0,3.3834,0.3477,5.0514,39.31,2.5075,0.5
454,2.0,3.3979,0.335,4.9641,39.88,2.487,0.5
457,2.0,3.3877,0.3407,4.9982,39.99,2.4988,0.5
460,2.0,3.401,0.3486,5.0414,39.65,2.5024,0.5
463,2.0,3.413,0.3367,4.8569,39.27,2.4993,0.5
466,2.0,3.4158,0.3401,5.1323,39.8,2.4945,0.5
469,2.0,3.3919,0.3337,4.9716,39.5,2.5157,0.5
472,2.0,3.3918,0.3406,4.9449,39.07,2.4938,0.5
475,2.0,3.4103,0.3335,4.7717,39.03,2.4979,0.5
478,2.0,3.3983,0.3344,4.9933,39.92,2.4778,0.5
481,2.0,3.3967,0.3404,5.0041,38.95,2.5076,0.5
484,2.0,3.4063,0.3338,4.7731,39.64,2.4902,0.5
487,2.0,3.4057,0.3375,5.0715,39.56,2.5031,0.5
490,2.0,3.4079,0.3371,4.9359,39.28,2.5166,0.5
493,2.0,3.3917,0.3375,5.1385,37.66,2.504,0.5
496,2.0,3.3903,0.3359,4.9337,38.45,2.4862,0.5
499,2.0,3.3948,0.3327,4.9594,40.04,2.4905,0.5
2,3.0,3.6464,0.2454,13.0651,50.28,4.3833,0.875083
5,3.0,3.5807,0.2815,11.897,50.56,4.0219,0.80249
8,3.0,3.5658,0.2866,11.2982,50.74,3.7475,0.748847
11,3.0,3.508,0.2996,10.6429,49.69,3.5268,0.705035
14,3.0,3.4982,0.3096,9.9627,50.73,3.3472,0.669562
17,3.0,3.4654,0.3202,9.3671,50.09,3.1677,0.635373
20,3.0,3.4339,0.3316,8.9649,50.77,3.0054,0.602719
23,3.0,3.4048,0.3402,8.5948,50.61,2.8671,0.573273
26,3.0,3.3979,0.3408,8.248,50.31,2.7165,0.545197
29,3.0,3.3928,0.3553,7.6254,50.5,2.6042,0.52193
32,3.0,3.3357,0.3555,7.5453,50.27,2.5107,0.5
35,3.0,3.3583,0.3629,7.6298,50.88,2.4891,0.5
38,3.0,3.3439,0.3667,7.3642,50.74,2.4991,0.5
41,3.0,3.3565,0.3646,7.6562,50.58,2.5295,0.5
44,3.0,3.3305,0.3596,7.6112,50.91,2.4945,0.5
47,3.0,3.3527,0.354,7.7057,50.7,2.4953,0.5
50,3.0,3.3466,0.3568,7.4221,51.22,2.5064,0.5
53,3.0,3.3461,0.3638,7.6827,49.95,2.5042,0.5
56,3.0,3.3551,0.3634,7.2644,50.69,2.4869,0.5
59,3.0,3.3435,0.3583,7.2631,49.96,2.498,0.5
62,3.0,3.3574,0.3633,7.5295,50.95,2.498,0.5
65,3.0,3.3467,0.353,7.4453,50.64,2.499,0.5
68,3.0,3.3273,0.3605,7.5861,51.04,2.4917,0.5
71,3.0,3.3378,0.3643,7.4679,49.94,2.4939,0.5
74,3.0,3.3529,0.3568,7.4371,51.07,2.4856,0.5
77,3.0,3.3321,0.3598,7.3463,50.59,2.5218,0.5
80,3.0,3.3478,0.358,7.5534,51.45,2.4822,0.5
83,3.0,3.3511,0.3573,7.5919,50.07,2.5075,0.5
86,3.0,3.3465,0.3642,7.4843,50.86,2.4994,0.5
89,3.0,3.35,0.3572,7.527,50.83,2.5109,0.5
92,3.0,3.3468,0.3658,7.5508,50.92,2.4841,0.5
95,3.0,3.3553,0.3583,7.3328,50.64,2.4953,0.5
98,3.0,3.343,0.3603,7.642,51.68,2.5027,0.5
101,3.0,3.3463,0.3583,7.5858,50.83,2.5037,0.5
104,3.0,3.3452,0.3599,7.4284,51.03,2.4996,0.5
107,3.0,3.3555,0.3582,7.355,51.36,2.498,0.5
110,3.0,3.3634,0.3633,7.5473,51.75,2.5062,0.5
113,3.0,3.3341,0.3618,7.5648,50.88,2.5049,0.5
116,3.0,3.3465,0.3602,7.4317,51.05,2.5111,0.5
119,3.0,3.3473,0.3643,7.4876,51.39,2.5087,0.5
122,3.0,3.3505,0.362,7.3242,50.87,2.5057,0.5
125,3.0,3.3697,0.356,7.5146,51.03,2.4957,0.5
128,3.0,3.3518,0.3631,7.5014,51.09,2.5019,0.5
131,3.0,3.354,0.3566,7.4631,50.39,2.5095,0.5
134,3.0,3.3659,0.3549,7.4772,51.89,2.501,0.5
137,3.0,3.3387,0.3663,7.6432,51.38,2.4928,0.5
140,3.0,3.3399,0.357,7.5395,50.59,2.5036,0.5
143,3.0,3.3383,0.3509,7.5718,50.91,2.5022,0.5
146,3.0,3.3523,0.3604,7.3727,51.22,2.4868,0.5
149,3.0,3.3598,0.3578,7.3669,50.86,2.4923,0.5
152,3.0,3.3565,0.3602,7.5165,50.59,2.4929,0.5
155,3.0,3.3635,0.3619,7.3521,51.2,2.4777,0.5
158,3.0,3.3381,0.3642,7.5821,51.87,2.4903,0.5
161,3.0,3.3406,0.368,7.3543,51.77,2.4938,0.5
164,3.0,3.3372,0.3596,7.4096,50.83,2.5079,0.5
167,3.0,3.3654,0.3538,7.5012,51.02,2.5053,0.5
170,3.0,3.3326,0.3654,7.4659,50.65,2.4975,0.5
173,3.0,3.3707,0.3643,7.6863,51.94,2.4937,0.5
176,3.0,3.3524,0.3708,7.4102,52.13,2.4998,0.5
179,3.0,3.3528,0.3623,7.5698,51.09,2.5046,0.5
182,3.0,3.342,0.3697,7.4549,51.14,2.5015,0.5
185,3.0,3.3315,0.3641,7.4453,50.33,2.4901,0.5
188,3.0,3.3535,0.3476,7.6053,51.4,2.4951,0.5
191,3.0,3.3489,0.3601,7.44,51.98,2.5043,0.5
194,3.0,3.3492,0.3582,7.5185,52.03,2.5063,0.5
197,3.0,3.3441,0.3612,7.5245,52.46,2.4888,0.5
200,3.0,3.3635,0.3631,7.5786,50.75,2.5059,0.5
203,3.0,3.3444,0.3626,7.5444,50.75,2.5122,0.5
206,3.0,3.3538,0.3677,7.631,51.61,2.5086,0.5
209,3.0,3.3447,0.3605,7.4092,50.76,2.4958,0.5
212,3.0,3.3481,0.3602,7.4526,51.94,2.4982,0.5
215,3.0,3.3618,0.3613,7.4338,51.62,2.504,0.5
218,3.0,3.3314,0.3573,7.4515,52.01,2.4836,0.5
221,3.0,3.3637,0.3601,7.5565,51.2,2.5151,0.5
224,3.0,3.3295,0.3564,7.444,51.39,2.4982,0.5
227,3.0,3.3349,0.365,7.4825,51.27,2.4875,0.5
230,3.0,3.3457,0.3576,7.638,51.87,2.5056,0.5
233,3.0,3.3536,0.3589,7.5282,51.17,2.4928,0.5
236,3.0,3.3557,0.365,7.4873,51.91,2.5098,0.5
239,3.0,3.3434,0.3652,7.5347,51.71,2.5041,0.5
242,3.0,3.3514,0.3559,7.5822,51.28,2.5014,0.5
245,3.0,3.3557,0.3603,7.564,52.42,2.5045,0.5
248,3.0,3.3434,0.364,7.5566,51.95,2.5004,0.5
251,3.0,3.3577,0.3627,7.5718,51.91,2.5135,0.5
254,3.0,3.3456,0.3556,7.6278,51.53,2.4963,0.5
257,3.0,3.3399,0.3582,7.1917,52.22,2.504,0.5
260,3.0,3.3323,0.3565,7.5642,51.64,2.5051,0.5
263,3.0,3.351,0.3593,7.6672,51.39,2.505,0.5
266,3.0,3.3343,0.3662,7.5039,52.64,2.4951,0.5
269,3.0,3.3507,0.3559,7.3945,51.22,2.4928,0.5
272,3.0,3.3544,0.3511,7.4252,52.62,2.4822,0.5
275,3.0,3.3502,0.3498,7.3682,51.7,2.5061,0.5
278,3.0,3.3546,0.3574,7.6756,50.86,2.5155,0.5
281,3.0,3.343,0.3643,7.5696,52.16,2.5147,0.5
284,3.0,3.3431,0.3526,7.4071,52.21,2.4925,0.5
287,3.0,3.3501,0.3524,7.6209,52.42,2.4933,0.5
290,3.0,3.357,0.3656,7.4907,52.44,2.4813,0.5
293,3.0,3.3496,0.3558,7.6683,52.09,2.4851,0.5
296,3.0,3.3486,0.3628,7.4837,51.07,2.4937,0.5
299,3.0,3.3418,0.3622,7.5906,51.93,2.5021,0.5
302,3.0,3.3659,0.3648,7.6944,51.64,2.5006,0.5
305,3.0,3.3615,0.3585,7.523,52.77,2.4868,0.5
308,3.0,3.3678,0.3582,7.497,52.14,2.5146,0.5
311,3.0,3.3414,0.3606,7.5674,52.92,2.5152,0.5
314,3.0,3.3385,0.3556,7.5764,51.91,2.5197,0.5
317,3.0,3.3502,0.3547,7.4949,51.55,2.4977,0.5
320,3.0,3.3209,0.3528,7.5775,52.01,2.5202,0.5
323,3.0,3.3521,0.358,7.3963,52.08,2.4922,0.5
326,3.0,3.3678,0.3691,7.4425,52.42,2.5025,0.5
329,3.0,3.3475,0.3637,7.5148,51.76,2.4936,0.5
332,3.0,3.3406,0.3534,7.3709,52.83,2.4883,0.5
335,3.0,3.3492,0.3533,7.419,52.05,2.519,0.5
338,3.0,3.3317,0.3681,7.4657,52.83,2.4923,0.5
341,3.0,3.3629,0.3561,7.5125,52.04,2.4922,0.5
344,3.0,3.3608,0.3564,7.4129,51.85,2.4926,0.5
347,3.0,3.3444,0.3633,7.4281,52.65,2.5183,0.5
350,3.0,3.3569,0.3646,7.4922,52.07,2.5023,0.5
353,3.0,3.3245,0.3619,7.5544,52.16,2.516,0.5
356,3.0,3.3636,0.3549,7.5161,52.78,2.5056,0.5
359,3.0,3.3482,0.3588,7.6167,52.53,2.4951,0.5
362,3.0,3.3455,0.3704,7.3705,52.72,2.5146,0.5
365,3.0,3.3544,0.3591,7.3045,52.71,2.4908,0.5
368,3.0,3.3637,0.3586,7.3829,52.58,2.4987,0.5
371,3.0,3.3592,0.3628,7.3861,52.97,2.517,0.5
374,3.0,3.3454,0.3591,7.3254,52.56,2.4982,0.5
377,3.0,3.3602,0.3606,7.4302,53.16,2.4992,0.5
380,3.0,3.3561,0.3546,7.5738,52.82,2.5028,0.5
383,3.0,3.3507,0.3622,7.4653,52.44,2.4912,0.5
386,3.0,3.3463,0.3588,7.581,52.29,2.4985,0.5
389,3.0,3.3533,0.3589,7.3712,52.26,2.4893,0.5
392,3.0,3.3606,0.3565,7.6196,51.73,2.5088,0.5
395,3.0,3.3439,0.3583,7.645,53.25,2.4888,0.5
398,3.0,3.3645,0.3613,7.4152,52.94,2.4942,0.5
401,3.0,3.3587,0.3637,7.4324,52.04,2.5071,0.5
404,3.0,3.3514,0.3555,7.4738,52.07,2.4966,0.5
407,3.0,3.3472,0.3543,7.6256,52.37,2.5057,0.5
410,3.0,3.3547,0.3649,7.5446,51.65,2.4936,0.5
413,3.0,3.3414,0.3625,7.5773,52.68,2.4894,0.5
416,3.0,3.3429,0.3633,7.5839,52.73,2.4779,0.5
419,3.0,3.3421,0.3586,7.4056,52.22,2.4949,0.5
422,3.0,3.3634,0.3569,7.4682,53.1,2.5002,0.5
425,3.0,3.3552,0.3599,7.5566,52.06,2.4952,0.5
428,3.0,3.3385,0.3588,7.4277,52.73,2.5044,0.5
431,3.0,3.3525,0.3585,7.4017,51.21,2.5032,0.5
434,3.0,3.3633,0.3694,7.5331,53.12,2.5051,0.5
437,3.0,3.363,0.3631,7.6829,53.68,2.5223,0.5
440,3.0,3.3563,0.3585,7.4335,52.9,2.4942,0.5
443,3.0,3.3175,0.3706,7.5215,52.24,2.4908,0.5
446,3.0,3.355,0.3558,7.46,52.62,2.5189,0.5
449,3.0,3.3528,0.3608,7.3929,52.71,2.5097,0.5
452,3.0,3.3587,0.3599,7.3716,53.68,2.4944,0.5
455,3.0,3.3537,0.3618,7.5359,54.17,2.5042,0.5
458,3.0,3.3547,0.3605,7.5697,53.35,2.4758,0.5
461,3.0,3.3284,0.3576,7.6797,53.27,2.5044,0.5
464,3.0,3.3606,0.3574,7.4958,52.83,2.5051,0.5
467,3.0,3.3326,0.3582,7.48,53.09,2.5074,0.5
470,3.0,3.3314,0.3562,7.5242,53.59,2.5032,0.5
473,3.0,3.3362,0.3594,7.5265,53.36,2.4956,0.5
476,3.0,3.3574,0.3571,7.5437,52.29,2.5011,0.5
479,3.0,3.3533,0.3643,7.5089,53.43,2.5098,0.5
482,3.0,3.363,0.3574,7.431,52.62,2.482,0.5
485,3.0,3.3551,0.364,7.629,53.76,2.4917,0.5
488,3.0,3.3496,0.3586,7.5528,53.62,2.506,0.5
491,3.0,3.3425,0.3536,7.4959,53.29,2.5172,0.5
494,3.0,3.3563,0.3594,7.5287,53.39,2.4996,0.5
497,3.0,3.339,0.3627,7.3806,53.45,2.4968,0.5
500,3.0,3.3624,0.3666,7.4116,52.83,2.4985,0.5